Folder: Roco504/Tensile test/TENSILE TEST.is_qtest_Exports

Note: README.md
# Roco504
The Foot Drop Assistance device
This repository contains my work for the Roco504 module for my third year of study at Plymouth University.

File: TENSILE TEST_1.csv
Time,Displacement,Force
(s),(mm),(kN)
"0.0000","0.0000","0.0002"
"0.2000","0.0572","0.0002"
"0.4000","0.1319","0.0003"
"0.6000","0.2005","0.0003"
"0.8000","0.2674","0.0002"
"1.0000","0.3342","0.0008"
"1.2000","0.4008","0.0009"
"1.4000","0.4674","0.0008"
"1.6000","0.5340","0.0010"
"1.8000","0.6007","0.0007"
"2.0000","0.6674","0.0013"
"2.2000","0.7341","-0.0002"
"2.4000","0.8008","0.0010"
"2.6000","0.8673","0.0007"
"2.8000","0.9341","0.0012"
"3.0000","1.0007","0.0008"
"3.2000","1.0674","0.0011"
"3.4000","1.1340","0.0017"
"3.6000","1.2007","0.0007"
"3.8000","1.2674","0.0009"
"4.0000","1.3341","0.0012"
"4.2000","1.4007","0.0006"
"4.4000","1.4674","0.0013"
"4.6000","1.5341","0.0014"
"4.8000","1.6007","0.0018"
"5.0000","1.6674","0.0017"
"5.2000","1.7340","0.0025"
"5.4000","1.8007","0.0018"
"5.6000","1.8673","0.0014"
"5.8000","1.9341","0.0018"
"6.0000","2.0007","0.0018"
"6.2000","2.0675","0.0021"
"6.4000","2.1341","0.0015"
"6.6000","2.2007","0.0021"
"6.8000","2.2674","0.0017"
"7.0000","2.3340","0.0015"
"7.2000","2.4007","0.0023"
"7.4000","2.4673","0.0020"
"7.6000","2.5341","0.0019"
"7.8000","2.6008","0.0020"
"8.0000","2.6674","0.0024"
"8.2000","2.7341","0.0020"
"8.4000","2.8007","0.0021"
"8.6000","2.8674","0.0023"
"8.8000","2.9340","0.0025"
"9.0000","3.0007","0.0022"
"9.2000","3.0674","0.0019"
"9.4000","3.1340","0.0025"
"9.6000","3.2008","0.0024"
"9.8000","3.2674","0.0019"
"10.0000","3.3340","0.0026"
"10.2000","3.4008","0.0030"
"10.4000","3.4674","0.0029"
"10.6000","3.5340","0.0023"
"10.8000","3.6006","0.0030"
"11.0000","3.6673","0.0025"
"11.2000","3.7339","0.0028"
"11.4000","3.8008","0.0027"
"11.6000","3.8674","0.0024"
"11.8000","3.9341","0.0031"
"12.0000","4.0008","0.0027"
"12.2000","4.0673","0.0030"
"12.4000","4.1340","0.0023"
"12.6000","4.2007","0.0023"
"12.8000","4.2674","0.0022"
"13.0000","4.3340","0.0027"
"13.2000","4.4007","0.0026"
"13.4000","4.4674","0.0029"
"13.6000","4.5340","0.0031"
"13.8000","4.6007","0.0028"
"14.0000","4.6673","0.0029"
"14.2000","4.7341","0.0019"
"14.4000","4.8007","0.0025"
"14.6000","4.8673","0.0032"
"14.8000","4.9340","0.0033"
"15.0000","5.0007","0.0025"
"15.2000","5.0674","0.0033"
"15.4000","5.1341","0.0030"
"15.6000","5.2007","0.0031"
"15.8000","5.2674","0.0036"
"16.0000","5.3339","0.0029"
"16.2000","5.4007","0.0025"
"16.4000","5.4674","0.0035"
"16.6000","5.5342","0.0032"
"16.8000","5.6006","0.0030"
"17.0000","5.6674","0.0034"
"17.2000","5.7340","0.0034"
"17.4000","5.8007","0.0033"
"17.6000","5.8674","0.0033"
"17.8000","5.9339","0.0034"
"18.0000","6.0007","0.0028"
"18.2000","6.0674","0.0040"
"18.4000","6.1340","0.0031"
"18.6000","6.2007","0.0030"
"18.8000","6.2674","0.0035"
"19.0000","6.3342","0.0030"
"19.2000","6.4006","0.0033"
"19.4000","6.4674","0.0034"
"19.6000","6.5339","0.0035"
"19.8000","6.6006","0.0038"
"20.0000","6.6674","0.0039"
"20.2000","6.7340","0.0041"
"20.4000","6.8008","0.0035"
"20.6000","6.8674","0.0029"
"20.8000","6.9341","0.0038"
"21.0000","7.0008","0.0032"
"21.2000","7.0674","0.0042"
"21.4000","7.1340","0.0038"
"21.6000","7.2006","0.0035"
"21.8000","7.2674","0.0037"
"22.0000","7.3340","0.0042"
"22.2000","7.4009","0.0040"
"22.4000","7.4674","0.0039"
"22.6000","7.5340","0.0042"
"22.8000","7.6007","0.0046"
"23.0000","7.6673","0.0036"
"23.2000","7.7340","0.0040"
"23.4000","7.8007","0.0038"
"23.6000","7.8675","0.0036"
"23.8000","7.9341","0.0040"
"24.0000","8.0007","0.0035"
"24.2000","8.0674","0.0042"
"24.4000","8.1340","0.0041"
"24.6000","8.2008","0.0037"
"24.8000","8.2673","0.0040"
"25.0000","8.3341","0.0039"
"25.2000","8.4007","0.0033"
"25.4000","8.4673","0.0042"
"25.6000","8.5341","0.0041"
"25.8000","8.6008","0.0039"
"26.0000","8.6674","0.0039"
"26.2000","8.7340","0.0040"
"26.4000","8.8007","0.0043"
"26.6000","8.8673","0.0042"
"26.8000","8.9340","0.0048"
"27.0000","9.0007","0.0042"
"27.2000","9.0673","0.0041"
"27.4000","9.1341","0.0037"
"27.6000","9.2007","0.0041"
"27.8000","9.2674","0.0042"
"28.0000","9.3340","0.0049"
"28.2000","9.4006","0.0044"
"28.4000","9.4674","0.0041"
"28.6000","9.5340","0.0047"
"28.8000","9.6007","0.0042"
"29.0000","9.6674","0.0050"
"29.2000","9.7341","0.0039"
"29.4000","9.8008","0.0043"
"29.6000","9.8674","0.0045"
"29.8000","9.9341","0.0045"
"30.0000","10.0006","0.0042"
"30.2000","10.0674","0.0046"
"30.4000","10.1340","0.0046"
"30.6000","10.2007","0.0053"
"30.8000","10.2674","0.0040"
"31.0000","10.3340","0.0042"
"31.2000","10.4008","0.0052"
"31.4000","10.4673","0.0046"
"31.6000","10.5341","0.0043"
"31.8000","10.6007","0.0045"
"32.0000","10.6674","0.0050"
"32.2000","10.7341","0.0044"
"32.4000","10.8007","0.0049"
"32.6000","10.8675","0.0050"
"32.8000","10.9340","0.0045"
"33.0000","11.0008","0.0055"
"33.2000","11.0674","0.0056"
"33.4000","11.1341","0.0046"
"33.6000","11.2008","0.0047"
"33.8000","11.2673","0.0045"
"34.0000","11.3341","0.0057"
"34.2000","11.4007","0.0046"
"34.4000","11.4674","0.0047"
"34.6000","11.5340","0.0044"
"34.8000","11.6007","0.0051"
"35.0000","11.6674","0.0046"
"35.2000","11.7339","0.0061"
"35.4000","11.8008","0.0043"
"35.6000","11.8673","0.0047"
"35.8000","11.9340","0.0048"
"36.0000","12.0008","0.0053"
"36.2000","12.0674","0.0055"
"36.4000","12.1341","0.0050"
"36.6000","12.2006","0.0052"
"36.8000","12.2674","0.0053"
"37.0000","12.3340","0.0053"
"37.2000","12.4006","0.0050"
"37.4000","12.4674","0.0045"
"37.6000","12.5340","0.0053"
"37.8000","12.6008","0.0050"
"38.0000","12.6674","0.0049"
"38.2000","12.7341","0.0044"
"38.4000","12.8007","0.0056"
"38.6000","12.8674","0.0058"
"38.8000","12.9341","0.0051"
"39.0000","13.0007","0.0045"
"39.2000","13.0675","0.0053"
"39.4000","13.1339","0.0053"
"39.6000","13.2007","0.0053"
"39.8000","13.2673","0.0052"
"40.0000","13.3340","0.0054"
"40.2000","13.4008","0.0057"
"40.4000","13.4673","0.0053"
"40.6000","13.5341","0.0051"
"40.8000","13.6007","0.0056"
"41.0000","13.6674","0.0050"
"41.2000","13.7340","0.0056"
"41.4000","13.8007","0.0053"
"41.6000","13.8675","0.0047"
"41.8000","13.9340","0.0050"
"42.0000","14.0008","0.0054"
"42.2000","14.0673","0.0051"
"42.4000","14.1341","0.0058"
"42.6000","14.2008","0.0054"
"42.8000","14.2673","0.0056"
"43.0000","14.3341","0.0054"
"43.2000","14.4007","0.0053"
"43.4000","14.4674","0.0052"
"43.6000","14.5340","0.0056"
"43.8000","14.6007","0.0050"
"44.0000","14.6674","0.0057"
"44.2000","14.7340","0.0051"
"44.4000","14.8008","0.0051"
"44.6000","14.8673","0.0049"
"44.8000","14.9341","0.0052"
"45.0000","15.0008","0.0053"
"45.2000","15.0674","0.0050"
"45.4000","15.1342","0.0057"
"45.6000","15.2007","0.0055"
"45.8000","15.2674","0.0053"
"46.0000","15.3340","0.0053"
"46.2000","15.4007","0.0062"
"46.4000","15.4674","0.0058"
"46.6000","15.5341","0.0055"
"46.8000","15.6007","0.0054"
"47.0000","15.6674","0.0054"
"47.2000","15.7341","0.0049"
"47.4000","15.8007","0.0057"
"47.6000","15.8674","0.0059"
"47.8000","15.9341","0.0056"
"48.0000","16.0006","0.0056"
"48.2000","16.0674","0.0059"
"48.4000","16.1340","0.0057"
"48.6000","16.2008","0.0055"
"48.8000","16.2674","0.0064"
"49.0000","16.3341","0.0050"
"49.2000","16.4007","0.0054"
"49.4000","16.4673","0.0056"
"49.6000","16.5341","0.0058"
"49.8000","16.6007","0.0062"
"50.0000","16.6674","0.0059"
"50.2000","16.7340","0.0064"
"50.4000","16.8007","0.0050"
"50.6000","16.8674","0.0060"
"50.8000","16.9340","0.0059"
"51.0000","17.0007","0.0058"
"51.2000","17.0673","0.0070"
"51.4000","17.1341","0.0053"
"51.6000","17.2007","0.0054"
"51.8000","17.2674","0.0064"
"52.0000","17.3340","0.0056"
"52.2000","17.4007","0.0057"
"52.4000","17.4674","0.0067"
"52.6000","17.5340","0.0066"
"52.8000","17.6008","0.0063"
"53.0000","17.6674","0.0068"
"53.2000","17.7340","0.0059"
"53.4000","17.8008","0.0060"
"53.6000","17.8673","0.0058"
"53.6720","17.8912","0.0061"

File: TENSILE TEST_2.csv
Time,Displacement,Force
(s),(mm),(kN)
"0.0000","-0.0001","0.0002"
"0.9000","3.0063","0.0020"
"1.8000","6.0065","0.0034"
"2.7000","9.0064","0.0048"
"3.6000","12.0064","0.0056"
"4.5000","15.0066","0.0064"
"5.4000","18.0066","0.0073"
"6.3000","21.0065","0.0075"
"7.2000","24.0067","0.0087"
"8.1000","27.0067","0.0085"
"9.0000","30.0068","0.0097"
"9.9000","33.0068","0.0096"
"10.8000","36.0067","0.0095"
"11.7000","39.0065","0.0106"
"12.6000","42.0065","0.0105"
"13.5000","45.0064","0.0111"
"14.4000","48.0066","0.0118"
"15.3000","51.0065","0.0121"
"16.2000","54.0065","0.0123"
"17.1000","57.0066","0.0132"
"18.0000","60.0065","0.0132"
"18.9000","63.0066","0.0137"
"19.8000","66.0067","0.0145"
"20.7000","69.0066","0.0141"
"21.6000","72.0067","0.0136"
"22.5000","75.0066","0.0149"
"23.4000","78.0067","0.0153"
"24.3000","81.0067","0.0152"
"25.2000","84.0066","0.0156"
"26.1000","87.0066","0.0151"
"27.0000","90.0062","0.0169"
"27.9000","93.0066","0.0169"
"28.8000","96.0064","0.0173"
"29.7000","99.0067","0.0171"
"30.6000","102.0067","0.0177"
"31.5000","105.0067","0.0175"
"32.4000","108.0067","0.0173"
"33.3000","111.0066","0.0179"
"34.2000","114.0068","0.0185"
"35.1000","117.0066","0.0186"
"36.0000","120.0068","0.0190"
"36.9000","123.0067","0.0186"
"37.8000","126.0066","0.0195"
"38.7000","129.0066","0.0206"
"39.6000","132.0065","0.0207"
"40.5000","135.0065","0.0209"
"41.4000","138.0065","0.0210"
"42.3000","141.0066","0.0220"
"43.2000","144.0065","0.0219"
"44.1000","147.0066","0.0226"
"45.0000","150.0067","0.0230"
"45.9000","153.0067","0.0230"
"46.8000","156.0066","0.0236"
"47.7000","159.0066","0.0246"
"48.6000","162.0064","0.0242"
"49.5000","165.0064","0.0245"
"50.4000","168.0066","0.0251"
"51.3000","171.0067","0.0235"
"52.2000","174.0066","0.0248"
"53.1000","177.0066","0.0255"
"54.0000","180.0063","0.0261"
"54.9000","183.0064","0.0270"
"55.8000","186.0065","0.0253"
"56.7000","189.0065","0.0264"
"57.6000","192.0065","0.0269"
"58.5000","195.0065","0.0284"
"59.4000","198.0066","0.0288"
"60.3000","201.0067","0.0284"
"61.2000","204.0066","0.0288"
"62.1000","207.0067","0.0296"
"63.0000","210.0066","0.0298"
"63.9000","213.0067","0.0268"
"64.8000","216.0065","0.0285"
"65.7000","219.0065","0.0297"
"66.6000","222.0066","0.0305"
"67.5000","225.0065","0.0316"
"68.4000","228.0066","0.0313"
"69.3000","231.0066","0.0321"
"70.2000","234.0066","0.0304"
"71.1000","237.0066","0.0318"
"72.0000","240.0064","0.0339"
"72.9000","243.0067","0.0340"
"73.8000","246.0065","0.0343"
"74.7000","249.0066","0.0348"
"75.6000","252.0066","0.0357"
"76.5000","255.0065","0.0361"
"77.4000","258.0064","0.0370"
"78.3000","261.0063","0.0369"
"79.2000","264.0067","0.0377"
"80.1000","267.0065","0.0385"
"81.0000","270.0068","0.0388"
"81.9000","273.0068","0.0392"
"82.8000","276.0066","0.0399"
"83.7000","279.0067","0.0405"
"84.6000","282.0067","0.0420"
"85.5000","285.0068","0.0415"
"86.4000","288.0066","0.0392"
"87.3000","291.0067","0.0416"
"88.2000","294.0065","0.0423"
"89.1000","297.0064","0.0427"
"90.0000","300.0066","0.0443"
"90.9000","303.0066","0.0441"
"91.8000","306.0066","0.0454"
"92.7000","309.0064","0.0454"
"93.6000","312.0066","0.0472"
"94.5000","315.0066","0.0467"
"95.4000","318.0067","0.0468"
"96.3000","321.0068","0.0485"
"97.2000","324.0067","0.0497"
"98.1000","327.0066","0.0504"
"99.0000","330.0065","0.0508"
"99.9000","333.0064","0.0520"
"100.8000","336.0066","0.0532"
"101.7000","339.0064","0.0535"
"102.6000","342.0067","0.0550"
"103.5000","345.0065","0.0559"
"104.4000","348.0062","0.0571"
"105.3000","351.0063","0.0574"
"106.2000","354.0065","0.0580"
"107.1000","357.0066","0.0599"
"108.0000","360.0067","0.0614"
"108.9000","363.0066","0.0619"
"109.8000","366.0066","0.0626"
"110.7000","369.0066","0.0640"
"111.6000","372.0066","0.0652"
"112.5000","375.0065","0.0656"
"113.4000","378.0066","0.0657"
"114.3000","381.0064","0.0677"
"115.2000","384.0065","0.0676"
"116.1000","387.0064","0.0695"
"117.0000","390.0064","0.0712"
"117.9000","393.0065","0.0727"
"118.8000","396.0063","0.0737"
"119.7000","399.0065","0.0756"
"120.6000","402.0065","0.0773"
"121.5000","405.0066","0.0774"
"122.4000","408.0067","0.0795"
"123.3000","411.0067","0.0820"
"124.2000","414.0068","0.0826"
"125.1000","417.0066","0.0837"
"126.0000","420.0064","0.0858"
"126.9000","423.0065","0.0870"
"127.8000","426.0064","0.0549"
"128.7000","429.0065","0.0594"
"129.6000","432.0063","0.0635"
"130.5000","435.0067","0.0667"
"131.4000","438.0064","0.0702"
"132.3000","441.0067","0.0739"
"133.2000","444.0066","0.0763"
"134.1000","447.0066","0.0796"
"135.0000","450.0068","0.0823"
"135.9000","453.0066","0.0848"
"136.8000","456.0070","0.0865"
"137.7000","459.0066","0.0879"
"138.6000","462.0068","0.0913"
"139.5000","465.0065","0.0924"
"140.4000","468.0065","0.0959"
"141.3000","471.0066","0.0976"
"142.2000","474.0064","0.0996"
"143.1000","477.0066","0.1028"
"144.0000","480.0064","0.1047"
"144.9000","483.0067","0.1076"
"145.8000","486.0066","0.1104"
"146.7000","489.0066","0.1130"
"147.6000","492.0067","0.1160"
"148.5000","495.0066","0.1187"
"149.4000","498.0065","0.1209"
"150.3000","501.0065","0.1233"
"151.2000","504.0065","0.1265"
"152.1000","507.0067","0.1286"
"153.0000","510.0066","0.1317"
"153.9000","513.0067","0.1344"
"154.8000","516.0064","0.1360"
"155.7000","519.0062","0.1396"
"156.6000","522.0063","0.1430"
"157.5000","525.0064","0.1467"
"158.4000","528.0065","0.1497"
"159.3000","531.0065","0.1536"
"160.2000","534.0064","0.1566"
"161.1000","537.0065","0.1606"
"162.0000","540.0064","0.1642"
"162.9000","543.0065","0.1687"
"163.8000","546.0065","0.1725"
"164.7000","549.0067","0.1767"
"165.6000","552.0063","0.1809"
"166.5000","555.0067","0.1841"
"167.4000","558.0065","0.1888"
"168.3000","561.0067","0.1921"
"169.2000","564.0065","0.1953"
"170.1000","567.0063","0.1994"
"171.0000","570.0063","0.2043"
"171.9000","573.0063","0.2077"
"172.8000","576.0066","0.2115"
"173.7000","579.0067","0.2151"
"174.6000","582.0067","0.2195"
"175.5000","585.0067","0.2239"
"176.4000","588.0062","0.2280"
"177.3000","591.0065","0.1993"
"178.2000","594.0063","0.2185"
"179.1000","597.0065","0.2282"
"180.0000","600.0066","0.2349"
"180.9000","603.0065","0.2400"
"181.8000","606.0067","0.1185"
"182.7000","609.0064","0.1433"
"183.6000","612.0066","0.1579"
"184.5000","615.0065","0.1705"
"185.4000","618.0067","0.1827"
"186.3000","621.0067","0.1930"
"187.2000","624.0065","0.2026"
"188.1000","627.0068","0.2110"
"189.0000","630.0065","0.2202"
"189.9000","633.0068","0.2285"
"190.8000","636.0065","0.2367"
"191.7000","639.0063","0.2231"
"192.6000","642.0065","0.2374"
"193.5000","645.0064","0.2472"
"194.4000","648.0065","0.2543"
"195.3000","651.0065","0.2578"
"196.2000","654.0067","0.2652"
"197.1000","657.0066","0.2715"
"198.0000","660.0067","0.2781"
"198.9000","663.0067","0.2848"
"199.8000","666.0063","0.2851"
"200.7000","669.0065","0.2933"
"201.6000","672.0065","0.3002"
"202.5000","675.0064","0.2225"
"203.4000","678.0065","0.2416"
"204.3000","681.0065","0.2579"
"205.2000","684.0065","0.2725"
"206.1000","687.0065","0.2845"
"207.0000","690.0063","0.2936"
"207.9000","693.0064","0.3038"
"208.8000","696.0064","0.3119"
"209.7000","699.0065","0.3196"
"210.6000","702.0066","0.3270"
"211.5000","705.0065","0.3325"
"212.4000","708.0067","0.3403"
"213.3000","711.0065","0.2276"
"214.2000","714.0065","0.2484"
"215.1000","717.0064","0.2674"
"216.0000","720.0066","0.2853"
"216.9000","723.0063","0.3007"
"217.8000","726.0065","0.3146"
"218.7000","729.0064","0.3256"
"219.6000","732.0063","0.3363"
"220.5000","735.0064","0.3461"
"221.4000","738.0063","0.3541"
"222.3000","741.0065","0.3588"
"223.2000","744.0064","0.3679"
"224.1000","747.0067","0.3746"
"225.0000","750.0067","0.3817"
"225.9000","753.0066","0.3891"
"226.8000","756.0066","0.3957"
"227.7000","759.0065","0.4014"
"228.6000","762.0064","0.4081"
"229.5000","765.0065","0.4151"
"230.4000","768.0065","0.4227"
"231.3000","771.0063","0.4294"
"232.2000","774.0062","0.4328"
"233.1000","777.0067","0.4403"
"234.0000","780.0064","0.4481"
"234.9000","783.0066","0.4551"
"235.8000","786.0068","0.4633"
"236.7000","789.0063","0.4704"
"237.6000","792.0067","0.4775"
"238.5000","795.0067","0.4853"
"239.4000","798.0069","0.4936"
"240.3000","801.0065","0.5004"
"241.1480","803.8334","0.1325"
"242.0480","806.8331","0.1477"
"242.9480","809.8332","0.1597"
"243.8480","812.8333","0.1300"
"244.7480","815.8331","0.1447"
"245.6480","818.8331","0.1562"
"246.5480","821.8328","0.1666"
"247.4480","824.8332","0.1769"
"248.3480","827.8331","0.1851"
"249.2480","830.8333","0.1932"
"250.1480","833.8332","0.1336"
"251.0480","836.8332","0.1455"
"251.9480","839.8333","0.1548"
"252.8480","842.8332","0.1526"
"253.7480","845.8334","0.1619"
"254.6480","848.8330","0.1715"
"255.5480","851.8334","0.1787"
"256.4480","854.8332","0.1865"
"257.3480","857.8331","0.1934"
"258.2480","860.8333","0.2000"
"259.1480","863.8331","0.2055"
"259.2100","864.0398","0.2070"

File: TENSILE TEST_3.csv
Time,Displacement,Force
(s),(mm),(kN)
"0.0000","-0.0001","0.0009"
"0.8000","2.6725","0.0014"
"1.6000","5.3399","0.0031"
"2.4000","8.0066","0.0033"
"3.2000","10.6732","0.0055"
"4.0000","13.3401","0.0066"
"4.8000","16.0067","0.0080"
"5.6000","18.6732","0.0087"
"6.4000","21.3399","0.0090"
"7.2000","24.0066","0.0099"
"8.0000","26.6734","0.0105"
"8.8000","29.3403","0.0111"
"9.6000","32.0066","0.0118"
"10.4000","34.6734","0.0125"
"11.2000","37.3399","0.0121"
"12.0000","40.0066","0.0134"
"12.8000","42.6733","0.0136"
"13.6000","45.3400","0.0142"
"14.4000","48.0067","0.0149"
"15.2000","50.6732","0.0152"
"16.0000","53.3398","0.0155"
"16.8000","56.0067","0.0160"
"17.6000","58.6733","0.0161"
"18.4000","61.3400","0.0168"
"19.2000","64.0069","0.0166"
"20.0000","66.6733","0.0174"
"20.8000","69.3402","0.0180"
"21.6000","72.0065","0.0181"
"22.4000","74.6732","0.0188"
"23.2000","77.3400","0.0194"
"24.0000","80.0067","0.0192"
"24.8000","82.6733","0.0205"
"25.6000","85.3398","0.0203"
"26.4000","88.0065","0.0215"
"27.2000","90.6733","0.0206"
"28.0000","93.3398","0.0219"
"28.8000","96.0066","0.0230"
"29.6000","98.6735","0.0224"
"30.4000","101.3398","0.0235"
"31.2000","104.0068","0.0229"
"32.0000","106.6734","0.0237"
"32.8000","109.3400","0.0251"
"33.6000","112.0067","0.0252"
"34.4000","114.6733","0.0257"
"35.2000","117.3400","0.0264"
"36.0000","120.0065","0.0264"
"36.8000","122.6731","0.0277"
"37.6000","125.3401","0.0276"
"38.4000","128.0066","0.0281"
"39.2000","130.6733","0.0288"
"40.0000","133.3400","0.0299"
"40.8000","136.0064","0.0301"
"41.6000","138.6733","0.0300"
"42.4000","141.3400","0.0313"
"43.2000","144.0067","0.0316"
"44.0000","146.6734","0.0320"
"44.8000","149.3400","0.0332"
"45.6000","152.0068","0.0346"
"46.4000","154.6732","0.0342"
"47.2000","157.3399","0.0345"
"48.0000","160.0067","0.0357"
"48.8000","162.6733","0.0363"
"49.6000","165.3400","0.0368"
"50.4000","168.0065","0.0375"
"51.2000","170.6731","0.0384"
"52.0000","173.3400","0.0387"
"52.8000","176.0066","0.0392"
"53.6000","178.6734","0.0412"
"54.4000","181.3400","0.0415"
"55.2000","184.0067","0.0422"
"56.0000","186.6733","0.0433"
"56.8000","189.3400","0.0436"
"57.6000","192.0067","0.0447"
"58.4000","194.6732","0.0462"
"59.2000","197.3400","0.0468"
"60.0000","200.0067","0.0478"
"60.8000","202.6730","0.0483"
"61.6000","205.3399","0.0494"
"62.4000","208.0066","0.0509"
"63.2000","210.6732","0.0508"
"64.0000","213.3403","0.0532"
"64.8000","216.0066","0.0536"
"65.6000","218.6732","0.0557"
"66.4000","221.3400","0.0568"
"67.2000","224.0068","0.0578"
"68.0000","226.6735","0.0595"
"68.8000","229.3399","0.0601"
"69.6000","232.0067","0.0616"
"70.4000","234.6734","0.0634"
"71.2000","237.3396","0.0649"
"72.0000","240.0066","0.0663"
"72.8000","242.6732","0.0680"
"73.6000","245.3400","0.0701"
"74.4000","248.0067","0.0715"
"75.2000","250.6732","0.0736"
"76.0000","253.3398","0.0760"
"76.8000","256.0067","0.0777"
"77.6000","258.6734","0.0805"
"78.4000","261.3404","0.0824"
"79.2000","264.0065","0.0841"
"80.0000","266.6734","0.0876"
"80.8000","269.3398","0.0892"
"81.6000","272.0063","0.0924"
"82.4000","274.6732","0.0947"
"83.2000","277.3399","0.0967"
"84.0000","280.0066","0.1011"
"84.8000","282.6733","0.1037"
"85.6000","285.3398","0.1064"
"86.4000","288.0065","0.1088"
"87.2000","290.6732","0.1014"
"88.0000","293.3401","0.1106"
"88.8000","296.0071","0.1147"
"89.6000","298.6733","0.1178"
"90.4000","301.3399","0.1211"
"91.2000","304.0064","0.1241"
"92.0000","306.6733","0.1075"
"92.8000","309.3400","0.1218"
"93.6000","312.0066","0.1280"
"94.4000","314.6734","0.1325"
"95.2000","317.3401","0.1340"
"96.0000","320.0067","0.1387"
"96.8000","322.6731","0.1076"
"97.6000","325.3399","0.1215"
"98.4000","328.0067","0.1318"
"99.2000","330.6735","0.1383"
"100.0000","333.3399","0.1436"
"100.8000","336.0068","0.1482"
"101.6000","338.6732","0.1148"
"102.4000","341.3400","0.1297"
"103.2000","344.0066","0.1412"
"104.0000","346.6731","0.1486"
"104.8000","349.3400","0.1159"
"105.6000","352.0064","0.1378"
"106.4000","354.6732","0.1497"
"107.2000","357.3400","0.1562"
"108.0000","360.0066","0.1456"
"108.8000","362.6731","0.1576"
"109.6000","365.3402","0.1635"
"110.4000","368.0065","0.1696"
"111.2000","370.6734","0.1740"
"112.0000","373.3400","0.1791"
"112.8000","376.0066","0.1591"
"113.6000","378.6732","0.1705"
"114.4000","381.3399","0.1710"
"115.2000","384.0065","0.1834"
"116.0000","386.6730","0.1913"
"116.8000","389.3399","0.1968"
"117.6000","392.0067","0.2025"
"118.4000","394.6732","0.1709"
"119.2000","397.3398","0.1933"
"120.0000","400.0068","0.2039"
"120.8000","402.6732","0.1800"
"121.6000","405.3400","0.2028"
"122.4000","408.0066","0.2131"
"123.2000","410.6732","0.2025"
"124.0000","413.3402","0.2196"
"124.8000","416.0066","0.2283"
"125.6000","418.6734","0.2347"
"126.4000","421.3399","0.2411"
"127.2000","424.0066","0.2474"
"128.0000","426.6733","0.2524"
"128.8000","429.3400","0.2580"
"129.6000","432.0067","0.2551"
"130.4000","434.6733","0.2641"
"131.2000","437.3398","0.2730"
"132.0000","440.0066","0.2788"
"132.8000","442.6732","0.2854"
"133.6000","445.3399","0.2732"
"134.4000","448.0067","0.2863"
"135.2000","450.6732","0.2951"
"136.0000","453.3401","0.3032"
"136.8000","456.0065","0.3041"
"137.6000","458.6732","0.3128"
"138.4000","461.3400","0.3214"
"139.2000","464.0067","0.3278"
"140.0000","466.6733","0.3239"
"140.8000","469.3398","0.3345"
"141.6000","472.0065","0.3436"
"142.4000","474.6735","0.3514"
"143.2000","477.3398","0.3595"
"144.0000","480.0068","0.3675"
"144.8000","482.6733","0.3750"
"145.6000","485.3400","0.3836"
"146.4000","488.0066","0.3912"
"147.2000","490.6732","0.3993"
"148.0000","493.3401","0.4067"
"148.8000","496.0067","0.4135"
"149.6000","498.6732","0.4215"
"150.4000","501.3400","0.4288"
"151.2000","504.0064","0.4351"
"152.0000","506.6732","0.4434"
"152.8000","509.3399","0.4518"
"153.6000","512.0065","0.4606"
"154.4000","514.6735","0.4690"
"155.2000","517.3400","0.4789"
"156.0000","520.0066","0.4868"
"156.7840","522.6199","0.2292"
"157.5840","525.2866","0.1138"
"158.3840","527.9532","0.1247"
"159.1840","530.6198","0.1283"
"159.9840","533.2864","0.1384"
"160.7840","535.9532","0.1489"
"161.5840","538.6199","0.1497"
"162.3840","541.2866","0.1593"
"163.1840","543.9533","0.1663"
"163.9840","546.6198","0.1523"
"164.7840","549.2864","0.1403"
"165.5840","551.9532","0.1537"
"166.3840","554.6199","0.1240"
"167.1840","557.2866","0.1357"
"167.9840","559.9531","0.1046"
"168.7840","562.6198","0.1149"
"169.5840","565.2865","0.1249"
"170.3840","567.9533","0.1165"
"171.1840","570.6197","0.1272"
"171.9840","573.2867","0.1347"
"172.7840","575.9533","0.1260"
"173.5840","578.6199","0.1351"
"174.3840","581.2866","0.1449"
"175.1840","583.9531","0.1543"
"175.9840","586.6201","0.1570"
"176.7840","589.2865","0.1659"
"177.5840","591.9534","0.1754"
"178.3840","594.6199","0.1615"
"179.1840","597.2863","0.1742"
"179.9840","599.9533","0.1475"
"180.7840","602.6199","0.1611"
"181.5840","605.2864","0.1719"
"182.3840","607.9532","0.1258"
"183.1840","610.6198","0.1386"
"183.9840","613.2864","0.1524"
"184.7840","615.9532","0.1605"
"185.5840","618.6198","0.1592"
"186.3840","621.2867","0.1703"
"187.1840","623.9532","0.1796"
"187.9840","626.6200","0.1870"
"188.7840","629.2865","0.1952"
"189.5840","631.9529","0.0715"
"190.3840","634.6196","0.0770"
"191.1840","637.2864","0.0768"
"191.9840","639.9532","0.0578"
"192.7840","642.6198","0.0630"
"193.5840","645.2865","0.0675"
"194.3840","647.9532","0.0716"
"195.1840","650.6199","0.0769"
"195.9840","653.2867","0.0522"
"196.7840","655.9536","0.0568"
"197.5840","658.6198","0.0602"
"198.3840","661.2868","0.0646"
"199.1840","663.9529","0.0686"
"199.9840","666.6198","0.0726"
"200.7840","669.2864","0.0775"
"201.5840","671.9530","0.0756"
"202.3840","674.6201","0.0804"
"203.1840","677.2864","0.0865"
"203.9840","679.9532","0.0912"
"204.7840","682.6198","0.0969"
"205.5840","685.2864","0.1018"
"206.3840","687.9533","0.1083"
"207.1840","690.6202","0.1130"
"207.9840","693.2864","0.1191"
"208.7840","695.9534","0.1242"
"209.5840","698.6196","0.1161"
"210.3840","701.2864","0.1249"
"211.1840","703.9531","0.1321"
"211.9840","706.6198","0.1381"
"212.7840","709.2867","0.1347"
"213.5840","711.9532","0.1452"
"214.3840","714.6198","0.1526"
"215.1840","717.2864","0.1477"
"215.9840","719.9532","0.1565"
"216.7840","722.6201","0.1633"
"217.5840","725.2869","0.1696"
"218.3840","727.9531","0.1757"
"219.1840","730.6201","0.0461"
"219.9840","733.2865","0.0488"
"220.7840","735.9534","0.0514"
"221.5840","738.6197","0.0533"
"222.3840","741.2864","0.0553"
"223.1840","743.9534","0.0583"
"223.8540","746.1866","0.0608"